File: 2024_09_17_sucrose_chm343_dsc.txt
Filename	2024_09_17_sucrose_chm343_dsc
Instrument name	DSC2A-00468 (192.168.1.100)
Operator	CHM343
rundate	9/17/2024
Sample name	2024_09_17_Sucrose_CHM343_DSC
proceduresegments	Equilibrate 30.00 °C; Ramp 10.00 °C/min to 210.00 °C; Isothermal 1.0 min; Ramp 10.00 °C/min to 30.00 °C; Isothermal 1.0 min; Ramp 10.00 °C/min to 210.00 °C
[step]
Ramp 10.00 °C/min to 210.00 °C
Time	Temperature	Heat Flow (Normalized)
min	°C	W/g
0.00	30.06	-0.053
0.01	30.06	-0.052
0.03	30.06	-0.050
0.04	30.07	-0.049
0.05	30.08	-0.049
0.07	30.10	-0.049
0.08	30.12	-0.057
0.09	30.16	-0.070
0.11	30.21	-0.077
0.12	30.28	-0.077
0.13	30.35	-0.074
0.15	30.44	-0.052
0.16	30.53	-0.022
0.17	30.62	0.002
0.19	30.72	0.027
0.20	30.83	0.048
0.21	30.94	0.067
0.23	31.05	0.082
0.24	31.16	0.096
0.25	31.28	0.109
0.27	31.40	0.117
0.28	31.51	0.127
0.29	31.63	0.135
0.31	31.76	0.143
0.32	31.88	0.149
0.33	32.01	0.158
0.35	32.13	0.162
0.36	32.26	0.168
0.37	32.39	0.170
0.39	32.51	0.175
0.40	32.64	0.179
0.41	32.77	0.181
0.43	32.90	0.182
0.44	33.03	0.185
0.45	33.16	0.187
0.47	33.29	0.189
0.48	33.42	0.192
0.49	33.55	0.192
0.51	33.68	0.193
0.52	33.81	0.194
0.53	33.94	0.194
0.55	34.07	0.195
0.56	34.20	0.195
0.57	34.34	0.196
0.59	34.47	0.197
0.60	34.60	0.197
0.61	34.73	0.198
0.63	34.86	0.198
0.64	34.99	0.199
0.65	35.13	0.199
0.67	35.26	0.199
0.68	35.39	0.200
0.69	35.52	0.200
0.71	35.65	0.200
0.72	35.79	0.201
0.73	35.92	0.201
0.75	36.05	0.202
0.76	36.18	0.202
0.77	36.32	0.202
0.79	36.45	0.202
0.80	36.58	0.203
0.81	36.71	0.203
0.83	36.85	0.203
0.84	36.98	0.204
0.85	37.11	0.204
0.87	37.24	0.204
0.88	37.37	0.204
0.89	37.51	0.204
0.91	37.64	0.205
0.92	37.77	0.205
0.93	37.91	0.205
0.95	38.04	0.205
0.96	38.17	0.206
0.97	38.30	0.206
0.99	38.44	0.206
1.00	38.57	0.206
1.01	38.70	0.206
1.03	38.83	0.206
1.04	38.97	0.207
1.05	39.10	0.207
1.07	39.23	0.207
1.08	39.37	0.207
1.09	39.50	0.207
1.11	39.63	0.207
1.12	39.77	0.207
1.13	39.90	0.208
1.15	40.03	0.208
1.16	40.16	0.208
1.17	40.30	0.208
1.19	40.43	0.208
1.20	40.56	0.208
1.21	40.70	0.208
1.23	40.83	0.208
1.24	40.96	0.208
1.25	41.10	0.208
1.27	41.23	0.208
1.28	41.36	0.209
1.29	41.50	0.209
1.31	41.63	0.209
1.32	41.76	0.209
1.33	41.89	0.209
1.35	42.03	0.209
1.36	42.16	0.209
1.37	42.29	0.209
1.39	42.43	0.209
1.40	42.56	0.209
1.41	42.69	0.209
1.43	42.83	0.209
1.44	42.96	0.210
1.45	43.09	0.210
1.47	43.23	0.210
1.48	43.36	0.210
1.49	43.49	0.210
1.51	43.63	0.210
1.52	43.76	0.210
1.53	43.89	0.210
1.55	44.03	0.210
1.56	44.16	0.210
1.57	44.29	0.210
1.59	44.42	0.210
1.60	44.56	0.210
1.61	44.69	0.210
1.63	44.82	0.210
1.64	44.96	0.210
1.65	45.09	0.211
1.67	45.22	0.211
1.68	45.36	0.211
1.69	45.49	0.211
1.71	45.62	0.211
1.72	45.76	0.211
1.73	45.89	0.211
1.75	46.03	0.211
1.76	46.16	0.211
1.77	46.29	0.211
1.79	46.42	0.211
1.80	46.56	0.211
1.81	46.69	0.211
1.83	46.82	0.211
1.84	46.96	0.211
1.85	47.09	0.211
1.87	47.22	0.211
1.88	47.36	0.211
1.89	47.49	0.211
1.91	47.62	0.212
1.92	47.76	0.212
1.93	47.89	0.212
1.95	48.02	0.212
1.96	48.16	0.212
1.97	48.29	0.212
1.99	48.42	0.212
2.00	48.56	0.212
2.01	48.69	0.212
2.03	48.83	0.212
2.04	48.96	0.212
2.05	49.09	0.212
2.07	49.23	0.212
2.08	49.36	0.212
2.09	49.49	0.212
2.11	49.63	0.212
2.12	49.76	0.212
2.13	49.89	0.212
2.15	50.03	0.213
2.16	50.16	0.213
2.17	50.29	0.213
2.19	50.43	0.213
2.20	50.56	0.213
2.21	50.69	0.213
2.23	50.83	0.213
2.24	50.96	0.213
2.25	51.09	0.213
2.27	51.23	0.213
2.28	51.36	0.213
2.29	51.49	0.213
2.31	51.63	0.213
2.32	51.76	0.213
2.33	51.89	0.213
2.35	52.03	0.213
2.36	52.16	0.214
2.37	52.29	0.214
2.39	52.43	0.214
2.40	52.56	0.214
2.41	52.69	0.214
2.43	52.83	0.214
2.44	52.96	0.214
2.45	53.10	0.214
2.47	53.23	0.214
2.48	53.36	0.214
2.49	53.49	0.214
2.51	53.63	0.214
2.52	53.76	0.214
2.53	53.90	0.214
2.55	54.03	0.214
2.56	54.16	0.214
2.57	54.30	0.214
2.59	54.43	0.215
2.60	54.56	0.215
2.61	54.69	0.215
2.63	54.83	0.215
2.64	54.96	0.215
2.65	55.10	0.215
2.67	55.23	0.215
2.68	55.36	0.215
2.69	55.50	0.215
2.71	55.63	0.215
2.72	55.76	0.215
2.73	55.90	0.215
2.75	56.03	0.215
2.76	56.16	0.215
2.77	56.30	0.215
2.79	56.43	0.215
2.80	56.56	0.215
2.81	56.70	0.215
2.83	56.83	0.216
2.84	56.96	0.216
2.85	57.10	0.216
2.87	57.23	0.216
2.88	57.36	0.216
2.89	57.50	0.216
2.91	57.63	0.216
2.92	57.76	0.216
2.93	57.90	0.216
2.95	58.03	0.216
2.96	58.16	0.216
2.97	58.30	0.216
2.99	58.43	0.216
3.00	58.56	0.216
3.01	58.70	0.217
3.03	58.83	0.217
3.04	58.96	0.217
3.05	59.10	0.217
3.07	59.23	0.217
3.08	59.37	0.217
3.09	59.50	0.217
3.11	59.63	0.217
3.12	59.77	0.217
3.13	59.90	0.217
3.15	60.03	0.217
3.16	60.17	0.218
3.17	60.30	0.217
3.19	60.43	0.218
3.20	60.57	0.218
3.21	60.70	0.218
3.23	60.83	0.218
3.24	60.97	0.218
3.25	61.10	0.218
3.27	61.23	0.218
3.28	61.37	0.218
3.29	61.50	0.218
3.31	61.63	0.218
3.32	61.77	0.218
3.33	61.90	0.218
3.35	62.03	0.218
3.36	62.17	0.218
3.37	62.30	0.218
3.39	62.43	0.218
3.40	62.57	0.219
3.41	62.70	0.219
3.43	62.83	0.219
3.44	62.97	0.219
3.45	63.10	0.219
3.47	63.23	0.219
3.48	63.37	0.219
3.49	63.50	0.219
3.51	63.63	0.219
3.52	63.77	0.219
3.53	63.90	0.219
3.55	64.03	0.220
3.56	64.17	0.220
3.57	64.30	0.220
3.59	64.44	0.220
3.60	64.57	0.220
3.61	64.70	0.220
3.63	64.84	0.220
3.64	64.97	0.220
3.65	65.10	0.220
3.67	65.24	0.220
3.68	65.37	0.220
3.69	65.50	0.221
3.71	65.64	0.221
3.72	65.77	0.221
3.73	65.90	0.221
3.75	66.04	0.221
3.76	66.17	0.221
3.77	66.30	0.221
3.79	66.44	0.221
3.80	66.57	0.221
3.81	66.70	0.221
3.83	66.84	0.221
3.84	66.97	0.221
3.85	67.10	0.221
3.87	67.24	0.221
3.88	67.37	0.222
3.89	67.51	0.222
3.91	67.64	0.222
3.92	67.77	0.222
3.93	67.91	0.222
3.95	68.04	0.222
3.96	68.17	0.222
3.97	68.31	0.222
3.99	68.44	0.222
4.00	68.57	0.222
4.01	68.71	0.222
4.03	68.84	0.223
4.04	68.97	0.223
4.05	69.11	0.223
4.07	69.24	0.223
4.08	69.37	0.223
4.09	69.51	0.223
4.11	69.64	0.223
4.12	69.77	0.223
4.13	69.91	0.223
4.15	70.04	0.223
4.16	70.17	0.223
4.17	70.31	0.224
4.19	70.44	0.224
4.20	70.57	0.224
4.21	70.71	0.224
4.23	70.84	0.224
4.24	70.97	0.224
4.25	71.11	0.224
4.27	71.24	0.224
4.28	71.38	0.224
4.29	71.51	0.225
4.31	71.64	0.225
4.32	71.77	0.225
4.33	71.91	0.225
4.35	72.04	0.225
4.36	72.18	0.225
4.37	72.31	0.225
4.39	72.44	0.225
4.40	72.58	0.225
4.41	72.71	0.225
4.43	72.84	0.225
4.44	72.97	0.225
4.45	73.11	0.226
4.47	73.24	0.226
4.48	73.38	0.226
4.49	73.51	0.226
4.51	73.64	0.226
4.52	73.78	0.226
4.53	73.91	0.226
4.55	74.04	0.226
4.56	74.18	0.226
4.57	74.31	0.226
4.59	74.44	0.226
4.60	74.58	0.226
4.61	74.71	0.227
4.63	74.84	0.227
4.64	74.98	0.227
4.65	75.11	0.227
4.67	75.25	0.227
4.68	75.38	0.227
4.69	75.51	0.227
4.71	75.64	0.227
4.72	75.78	0.227
4.73	75.91	0.227
4.75	76.05	0.228
4.76	76.18	0.228
4.77	76.31	0.228
4.79	76.45	0.228
4.80	76.58	0.228
4.81	76.71	0.228
4.83	76.84	0.228
4.84	76.98	0.228
4.85	77.11	0.228
4.87	77.25	0.229
4.88	77.38	0.229
4.89	77.51	0.229
4.91	77.65	0.229
4.92	77.78	0.229
4.93	77.91	0.229
4.95	78.05	0.229
4.96	78.18	0.229
4.97	78.31	0.229
4.99	78.45	0.229
5.00	78.58	0.230
5.01	78.71	0.230
5.03	78.85	0.230
5.04	78.98	0.230
5.05	79.11	0.230
5.07	79.25	0.230
5.08	79.38	0.230
5.09	79.51	0.230
5.11	79.65	0.230
5.12	79.78	0.230
5.13	79.91	0.230
5.15	80.05	0.231
5.16	80.18	0.231
5.17	80.31	0.231
5.19	80.45	0.231
5.20	80.58	0.231
5.21	80.71	0.231
5.23	80.85	0.231
5.24	80.98	0.231
5.25	81.11	0.231
5.27	81.25	0.231
5.28	81.38	0.231
5.29	81.51	0.232
5.31	81.65	0.232
5.32	81.78	0.232
5.33	81.91	0.232
5.35	82.05	0.232
5.36	82.18	0.232
5.37	82.31	0.232
5.39	82.45	0.232
5.40	82.58	0.232
5.41	82.72	0.232
5.43	82.85	0.232
5.44	82.98	0.232
5.45	83.12	0.232
5.47	83.25	0.233
5.48	83.38	0.233
5.49	83.52	0.233
5.51	83.65	0.233
5.52	83.78	0.233
5.53	83.92	0.233
5.55	84.05	0.233
5.56	84.18	0.233
5.57	84.32	0.233
5.59	84.45	0.233
5.60	84.58	0.233
5.61	84.72	0.233
5.63	84.85	0.233
5.64	84.98	0.233
5.65	85.12	0.234
5.67	85.25	0.234
5.68	85.38	0.234
5.69	85.52	0.234
5.71	85.65	0.234
5.72	85.78	0.234
5.73	85.92	0.234
5.75	86.05	0.234
5.76	86.18	0.234
5.77	86.32	0.234
5.79	86.45	0.234
5.80	86.58	0.234
5.81	86.72	0.235
5.83	86.85	0.235
5.84	86.99	0.235
5.85	87.12	0.235
5.87	87.25	0.235
5.88	87.39	0.235
5.89	87.52	0.235
5.91	87.65	0.235
5.92	87.79	0.235
5.93	87.92	0.235
5.95	88.05	0.235
5.96	88.19	0.235
5.97	88.32	0.236
5.99	88.45	0.236
6.00	88.59	0.236
6.01	88.72	0.236
6.03	88.85	0.236
6.04	88.99	0.236
6.05	89.12	0.236
6.07	89.25	0.236
6.08	89.39	0.236
6.09	89.52	0.237
6.11	89.65	0.237
6.12	89.79	0.237
6.13	89.92	0.237
6.15	90.05	0.237
6.16	90.19	0.237
6.17	90.32	0.237
6.19	90.45	0.237
6.20	90.59	0.238
6.21	90.72	0.238
6.23	90.85	0.238
6.24	90.99	0.238
6.25	91.12	0.238
6.27	91.25	0.238
6.28	91.39	0.238
6.29	91.52	0.239
6.31	91.65	0.239
6.32	91.79	0.239
6.33	91.92	0.239
6.35	92.06	0.239
6.36	92.19	0.239
6.37	92.32	0.239
6.39	92.46	0.239
6.40	92.59	0.240
6.41	92.72	0.240
6.43	92.86	0.240
6.44	92.99	0.240
6.45	93.12	0.240
6.47	93.26	0.240
6.48	93.39	0.240
6.49	93.52	0.240
6.51	93.66	0.241
6.52	93.79	0.241
6.53	93.92	0.241
6.55	94.06	0.241
6.56	94.19	0.241
6.57	94.32	0.241
6.59	94.46	0.241
6.60	94.59	0.241
6.61	94.72	0.242
6.63	94.86	0.242
6.64	94.99	0.242
6.65	95.12	0.242
6.67	95.26	0.242
6.68	95.39	0.242
6.69	95.52	0.242
6.71	95.66	0.242
6.72	95.79	0.243
6.73	95.92	0.243
6.75	96.06	0.243
6.76	96.19	0.243
6.77	96.32	0.243
6.79	96.46	0.243
6.80	96.59	0.243
6.81	96.73	0.243
6.83	96.86	0.244
6.84	96.99	0.244
6.85	97.13	0.244
6.87	97.26	0.244
6.88	97.39	0.244
6.89	97.53	0.244
6.91	97.66	0.244
6.92	97.79	0.245
6.93	97.92	0.245
6.95	98.06	0.245
6.96	98.19	0.245
6.97	98.33	0.245
6.99	98.46	0.245
7.00	98.59	0.245
7.01	98.73	0.245
7.03	98.86	0.245
7.04	98.99	0.246
7.05	99.13	0.246
7.07	99.26	0.246
7.08	99.39	0.246
7.09	99.53	0.246
7.11	99.66	0.246
7.12	99.79	0.246
7.13	99.93	0.247
7.15	100.06	0.247
7.16	100.19	0.247
7.17	100.33	0.247
7.19	100.46	0.247
7.20	100.59	0.247
7.21	100.73	0.247
7.23	100.86	0.248
7.24	100.99	0.248
7.25	101.13	0.248
7.27	101.26	0.248
7.28	101.39	0.248
7.29	101.53	0.248
7.31	101.66	0.248
7.32	101.79	0.249
7.33	101.93	0.249
7.35	102.06	0.249
7.36	102.19	0.249
7.37	102.33	0.249
7.39	102.46	0.249
7.40	102.59	0.249
7.41	102.73	0.249
7.43	102.86	0.250
7.44	103.00	0.250
7.45	103.13	0.250
7.47	103.26	0.250
7.48	103.40	0.250
7.49	103.53	0.250
7.51	103.66	0.250
7.52	103.80	0.250
7.53	103.93	0.251
7.55	104.06	0.251
7.56	104.20	0.251
7.57	104.33	0.251
7.59	104.46	0.251
7.60	104.59	0.251
7.61	104.73	0.251
7.63	104.86	0.251
7.64	104.99	0.252
7.65	105.13	0.252
7.67	105.26	0.252
7.68	105.40	0.252
7.69	105.53	0.252
7.71	105.66	0.252
7.72	105.80	0.252
7.73	105.93	0.253
7.75	106.06	0.253
7.76	106.20	0.253
7.77	106.33	0.253
7.79	106.46	0.253
7.80	106.60	0.253
7.81	106.73	0.253
7.83	106.86	0.253
7.84	107.00	0.253
7.85	107.13	0.254
7.87	107.26	0.254
7.88	107.40	0.254
7.89	107.53	0.254
7.91	107.66	0.254
7.92	107.80	0.254
7.93	107.93	0.254
7.95	108.06	0.255
7.96	108.20	0.255
7.97	108.33	0.255
7.99	108.46	0.255
8.00	108.60	0.255
8.01	108.73	0.255
8.03	108.86	0.255
8.04	109.00	0.256
8.05	109.13	0.256
8.07	109.26	0.256
8.08	109.40	0.256
8.09	109.53	0.256
8.11	109.66	0.256
8.12	109.80	0.257
8.13	109.93	0.257
8.15	110.06	0.257
8.16	110.20	0.257
8.17	110.33	0.257
8.19	110.46	0.257
8.20	110.60	0.257
8.21	110.73	0.258
8.23	110.86	0.258
8.24	111.00	0.258
8.25	111.13	0.258
8.27	111.26	0.258
8.28	111.40	0.258
8.29	111.53	0.258
8.31	111.67	0.258
8.32	111.80	0.259
8.33	111.93	0.259
8.35	112.07	0.259
8.36	112.20	0.259
8.37	112.33	0.259
8.39	112.47	0.259
8.40	112.60	0.259
8.41	112.73	0.260
8.43	112.87	0.260
8.44	113.00	0.260
8.45	113.13	0.260
8.47	113.27	0.260
8.48	113.40	0.260
8.49	113.53	0.260
8.51	113.67	0.261
8.52	113.80	0.261
8.53	113.93	0.261
8.55	114.07	0.261
8.56	114.20	0.261
8.57	114.33	0.261
8.59	114.47	0.261
8.60	114.60	0.262
8.61	114.73	0.262
8.63	114.87	0.262
8.64	115.00	0.262
8.65	115.13	0.262
8.67	115.27	0.262
8.68	115.40	0.262
8.69	115.53	0.262
8.71	115.67	0.263
8.72	115.80	0.263
8.73	115.93	0.263
8.75	116.07	0.263
8.76	116.20	0.263
8.77	116.34	0.263
8.79	116.47	0.263
8.80	116.60	0.264
8.81	116.73	0.264
8.83	116.87	0.264
8.84	117.00	0.264
8.85	117.14	0.264
8.87	117.27	0.264
8.88	117.40	0.264
8.89	117.54	0.265
8.91	117.67	0.265
8.92	117.80	0.265
8.93	117.94	0.265
8.95	118.07	0.265
8.96	118.20	0.265
8.97	118.34	0.266
8.99	118.47	0.266
9.00	118.60	0.266
9.01	118.74	0.266
9.03	118.87	0.266
9.04	119.00	0.266
9.05	119.14	0.266
9.07	119.27	0.267
9.08	119.40	0.267
9.09	119.54	0.267
9.11	119.67	0.267
9.12	119.80	0.267
9.13	119.94	0.267
9.15	120.07	0.268
9.16	120.20	0.268
9.17	120.34	0.268
9.19	120.47	0.268
9.20	120.60	0.268
9.21	120.74	0.268
9.23	120.87	0.268
9.24	121.00	0.269
9.25	121.14	0.269
9.27	121.27	0.269
9.28	121.40	0.269
9.29	121.54	0.269
9.31	121.67	0.269
9.32	121.80	0.269
9.33	121.94	0.270
9.35	122.07	0.270
9.36	122.20	0.270
9.37	122.34	0.270
9.39	122.47	0.270
9.40	122.61	0.270
9.41	122.74	0.270
9.43	122.87	0.271
9.44	123.01	0.271
9.45	123.14	0.271
9.47	123.27	0.271
9.48	123.40	0.272
9.49	123.54	0.272
9.51	123.67	0.272
9.52	123.81	0.272
9.53	123.94	0.272
9.55	124.07	0.272
9.56	124.20	0.272
9.57	124.34	0.272
9.59	124.47	0.273
9.60	124.60	0.273
9.61	124.74	0.273
9.63	124.87	0.273
9.64	125.01	0.273
9.65	125.14	0.273
9.67	125.27	0.273
9.68	125.41	0.274
9.69	125.54	0.274
9.71	125.67	0.274
9.72	125.81	0.274
9.73	125.94	0.274
9.75	126.07	0.275
9.76	126.21	0.275
9.77	126.34	0.275
9.79	126.47	0.275
9.80	126.61	0.275
9.81	126.74	0.275
9.83	126.87	0.276
9.84	127.01	0.276
9.85	127.14	0.276
9.87	127.27	0.276
9.88	127.41	0.276
9.89	127.54	0.277
9.91	127.67	0.277
9.92	127.81	0.277
9.93	127.94	0.277
9.95	128.07	0.277
9.96	128.21	0.277
9.97	128.34	0.278
9.99	128.47	0.278
10.00	128.61	0.278
10.01	128.74	0.278
10.03	128.87	0.278
10.04	129.01	0.278
10.05	129.14	0.278
10.07	129.27	0.279
10.08	129.41	0.279
10.09	129.54	0.279
10.11	129.67	0.279
10.12	129.81	0.279
10.13	129.94	0.279
10.15	130.07	0.280
10.16	130.21	0.280
10.17	130.34	0.280
10.19	130.47	0.280
10.20	130.61	0.280
10.21	130.74	0.281
10.23	130.87	0.281
10.24	131.01	0.281
10.25	131.14	0.281
10.27	131.27	0.281
10.28	131.41	0.282
10.29	131.54	0.282
10.31	131.67	0.282
10.32	131.81	0.282
10.33	131.94	0.282
10.35	132.08	0.282
10.36	132.21	0.282
10.37	132.34	0.283
10.39	132.47	0.283
10.40	132.61	0.283
10.41	132.74	0.283
10.43	132.88	0.283
10.44	133.01	0.283
10.45	133.14	0.284
10.47	133.28	0.284
10.48	133.41	0.284
10.49	133.54	0.284
10.51	133.68	0.284
10.52	133.81	0.284
10.53	133.94	0.284
10.55	134.08	0.285
10.56	134.21	0.285
10.57	134.34	0.285
10.59	134.48	0.285
10.60	134.61	0.285
10.61	134.74	0.285
10.63	134.88	0.286
10.64	135.01	0.286
10.65	135.14	0.286
10.67	135.28	0.286
10.68	135.41	0.286
10.69	135.54	0.286
10.71	135.68	0.287
10.72	135.81	0.287
10.73	135.94	0.287
10.75	136.08	0.287
10.76	136.21	0.287
10.77	136.34	0.287
10.79	136.48	0.288
10.80	136.61	0.288
10.81	136.74	0.288
10.83	136.88	0.288
10.84	137.01	0.288
10.85	137.14	0.288
10.87	137.28	0.288
10.88	137.41	0.288
10.89	137.54	0.289
10.91	137.68	0.289
10.92	137.81	0.289
10.93	137.94	0.289
10.95	138.08	0.289
10.96	138.21	0.289
10.97	138.34	0.289
10.99	138.48	0.290
11.00	138.61	0.290
11.01	138.75	0.290
11.03	138.88	0.290
11.04	139.01	0.290
11.05	139.14	0.290
11.07	139.28	0.291
11.08	139.41	0.291
11.09	139.55	0.291
11.11	139.68	0.291
11.12	139.81	0.291
11.13	139.94	0.291
11.15	140.08	0.292
11.16	140.21	0.292
11.17	140.34	0.292
11.19	140.48	0.292
11.20	140.61	0.292
11.21	140.74	0.292
11.23	140.88	0.292
11.24	141.01	0.293
11.25	141.14	0.293
11.27	141.28	0.293
11.28	141.41	0.293
11.29	141.54	0.293
11.31	141.68	0.293
11.32	141.81	0.293
11.33	141.95	0.294
11.35	142.08	0.294
11.36	142.21	0.294
11.37	142.35	0.294
11.39	142.48	0.294
11.40	142.61	0.294
11.41	142.75	0.295
11.43	142.88	0.295
11.44	143.01	0.295
11.45	143.15	0.295
11.47	143.28	0.295
11.48	143.41	0.296
11.49	143.55	0.296
11.51	143.68	0.296
11.52	143.81	0.296
11.53	143.95	0.296
11.55	144.08	0.296
11.56	144.21	0.296
11.57	144.35	0.297
11.59	144.48	0.297
11.60	144.61	0.297
11.61	144.75	0.297
11.63	144.88	0.298
11.64	145.01	0.298
11.65	145.15	0.298
11.67	145.28	0.298
11.68	145.41	0.299
11.69	145.55	0.299
11.71	145.68	0.300
11.72	145.81	0.301
11.73	145.95	0.302
11.75	146.08	0.302
11.76	146.21	0.302
11.77	146.35	0.302
11.79	146.48	0.303
11.80	146.61	0.303
11.81	146.75	0.303
11.83	146.88	0.303
11.84	147.01	0.304
11.85	147.15	0.304
11.87	147.28	0.304
11.88	147.41	0.305
11.89	147.55	0.305
11.91	147.68	0.306
11.92	147.81	0.306
11.93	147.95	0.306
11.95	148.08	0.307
11.96	148.21	0.307
11.97	148.35	0.307
11.99	148.48	0.308
12.00	148.61	0.309
12.01	148.75	0.309
12.03	148.88	0.311
12.04	149.01	0.311
12.05	149.15	0.312
12.07	149.28	0.313
12.08	149.41	0.315
12.09	149.55	0.317
12.11	149.68	0.319
12.12	149.81	0.321
12.13	149.94	0.323
12.15	150.08	0.324
12.16	150.21	0.329
12.17	150.34	0.333
12.19	150.48	0.337
12.20	150.61	0.341
12.21	150.74	0.345
12.23	150.87	0.349
12.24	151.01	0.354
12.25	151.14	0.359
12.27	151.27	0.366
12.28	151.41	0.371
12.29	151.54	0.378
12.31	151.67	0.385
12.32	151.80	0.393
12.33	151.94	0.399
12.35	152.07	0.407
12.36	152.20	0.417
12.37	152.33	0.423
12.39	152.46	0.430
12.40	152.60	0.437
12.41	152.73	0.449
12.43	152.86	0.459
12.44	152.99	0.467
12.45	153.13	0.474
12.47	153.26	0.483
12.48	153.39	0.494
12.49	153.52	0.499
12.51	153.65	0.510
12.52	153.78	0.518
12.53	153.92	0.526
12.55	154.05	0.536
12.56	154.18	0.541
12.57	154.31	0.552
12.59	154.44	0.559
12.60	154.57	0.558
12.61	154.71	0.555
12.63	154.84	0.562
12.64	154.97	0.574
12.65	155.10	0.585
12.67	155.24	0.593
12.68	155.37	0.600
12.69	155.50	0.608
12.71	155.63	0.612
12.72	155.76	0.619
12.73	155.90	0.623
12.75	156.03	0.628
12.76	156.16	0.633
12.77	156.29	0.638
12.79	156.43	0.641
12.80	156.56	0.644
12.81	156.69	0.646
12.83	156.82	0.649
12.84	156.96	0.651
12.85	157.09	0.653
12.87	157.22	0.653
12.88	157.36	0.655
12.89	157.49	0.656
12.91	157.62	0.657
12.92	157.75	0.657
12.93	157.89	0.657
12.95	158.02	0.658
12.96	158.15	0.658
12.97	158.29	0.659
12.99	158.42	0.659
13.00	158.55	0.659
13.01	158.69	0.659
13.03	158.82	0.659
13.04	158.95	0.659
13.05	159.09	0.659
13.07	159.22	0.659
13.08	159.35	0.659
13.09	159.49	0.659
13.11	159.62	0.658
13.12	159.76	0.657
13.13	159.89	0.657
13.15	160.02	0.656
13.16	160.16	0.655
13.17	160.29	0.654
13.19	160.42	0.653
13.20	160.56	0.652
13.21	160.69	0.650
13.23	160.83	0.649
13.24	160.96	0.646
13.25	161.09	0.645
13.27	161.23	0.644
13.28	161.36	0.642
13.29	161.49	0.641
13.31	161.63	0.641
13.32	161.76	0.639
13.33	161.89	0.638
13.35	162.03	0.637
13.36	162.16	0.637
13.37	162.30	0.635
13.39	162.43	0.634
13.40	162.56	0.633
13.41	162.70	0.632
13.43	162.83	0.631
13.44	162.96	0.630
13.45	163.10	0.629
13.47	163.23	0.629
13.48	163.36	0.628
13.49	163.50	0.628
13.51	163.63	0.627
13.52	163.76	0.626
13.53	163.90	0.626
13.55	164.03	0.625
13.56	164.17	0.625
13.57	164.30	0.624
13.59	164.43	0.624
13.60	164.57	0.623
13.61	164.70	0.623
13.63	164.83	0.622
13.64	164.97	0.622
13.65	165.10	0.621
13.67	165.23	0.621
13.68	165.37	0.620
13.69	165.50	0.620
13.71	165.63	0.620
13.72	165.77	0.619
13.73	165.90	0.619
13.75	166.03	0.618
13.76	166.17	0.618
13.77	166.30	0.618
13.79	166.43	0.618
13.80	166.57	0.617
13.81	166.70	0.617
13.83	166.84	0.617
13.84	166.97	0.617
13.85	167.10	0.617
13.87	167.23	0.617
13.88	167.37	0.617
13.89	167.50	0.617
13.91	167.64	0.617
13.92	167.77	0.617
13.93	167.90	0.617
13.95	168.04	0.617
13.96	168.17	0.617
13.97	168.30	0.617
13.99	168.44	0.617
14.00	168.57	0.617
14.01	168.70	0.617
14.03	168.83	0.617
14.04	168.97	0.617
14.05	169.10	0.618
14.07	169.23	0.618
14.08	169.37	0.618
14.09	169.50	0.619
14.11	169.63	0.620
14.12	169.77	0.620
14.13	169.90	0.622
14.15	170.03	0.623
14.16	170.17	0.624
14.17	170.30	0.625
14.19	170.43	0.627
14.20	170.57	0.628
14.21	170.70	0.629
14.23	170.83	0.629
14.24	170.97	0.630
14.25	171.10	0.631
14.27	171.23	0.633
14.28	171.37	0.635
14.29	171.50	0.637
14.31	171.63	0.638
14.32	171.76	0.640
14.33	171.90	0.643
14.35	172.03	0.644
14.36	172.16	0.646
14.37	172.30	0.649
14.39	172.43	0.651
14.40	172.56	0.654
14.41	172.70	0.657
14.43	172.83	0.659
14.44	172.96	0.661
14.45	173.10	0.664
14.47	173.23	0.667
14.48	173.36	0.671
14.49	173.49	0.673
14.51	173.63	0.677
14.52	173.76	0.679
14.53	173.89	0.681
14.55	174.03	0.682
14.56	174.16	0.683
14.57	174.29	0.686
14.59	174.43	0.693
14.60	174.56	0.699
14.61	174.69	0.704
14.63	174.82	0.706
14.64	174.96	0.710
14.65	175.09	0.712
14.67	175.22	0.716
14.68	175.36	0.719
14.69	175.49	0.724
14.71	175.62	0.728
14.72	175.75	0.732
14.73	175.89	0.737
14.75	176.02	0.741
14.76	176.15	0.747
14.77	176.28	0.751
14.79	176.42	0.755
14.80	176.55	0.757
14.81	176.68	0.762
14.83	176.82	0.766
14.84	176.95	0.769
14.85	177.08	0.775
14.87	177.21	0.779
14.88	177.35	0.785
14.89	177.48	0.796
14.91	177.61	0.801
14.92	177.74	0.801
14.93	177.88	0.802
14.95	178.01	0.802
14.96	178.14	0.803
14.97	178.27	0.808
14.99	178.41	0.816
15.00	178.54	0.817
15.01	178.67	0.816
15.03	178.81	0.821
15.04	178.94	0.831
15.05	179.07	0.843
15.07	179.20	0.849
15.08	179.34	0.857
15.09	179.47	0.865
15.11	179.60	0.872
15.12	179.73	0.879
15.13	179.86	0.886
15.15	180.00	0.892
15.16	180.13	0.899
15.17	180.26	0.905
15.19	180.39	0.913
15.20	180.53	0.921
15.21	180.66	0.928
15.23	180.79	0.934
15.24	180.92	0.941
15.25	181.05	0.954
15.27	181.19	0.963
15.28	181.32	0.972
15.29	181.45	0.981
15.31	181.58	0.988
15.32	181.71	0.996
15.33	181.85	1.005
15.35	181.98	1.012
15.36	182.11	1.021
15.37	182.24	1.030
15.39	182.37	1.040
15.40	182.51	1.048
15.41	182.64	1.058
15.43	182.77	1.069
15.44	182.90	1.083
15.45	183.03	1.093
15.47	183.16	1.102
15.48	183.29	1.118
15.49	183.43	1.129
15.51	183.56	1.145
15.52	183.69	1.165
15.53	183.82	1.182
15.55	183.95	1.192
15.56	184.08	1.201
15.57	184.21	1.211
15.59	184.34	1.222
15.60	184.48	1.236
15.61	184.61	1.252
15.63	184.74	1.265
15.64	184.87	1.284
15.65	185.00	1.298
15.67	185.13	1.311
15.68	185.26	1.339
15.69	185.39	1.380
15.71	185.52	1.425
15.72	185.65	1.458
15.73	185.78	1.471
15.75	185.91	1.479
15.76	186.04	1.499
15.77	186.16	1.536
15.79	186.29	1.571
15.80	186.42	1.581
15.81	186.55	1.586
15.83	186.68	1.592
15.84	186.81	1.606
15.85	186.94	1.626
15.87	187.07	1.642
15.88	187.21	1.666
15.89	187.33	1.682
15.91	187.47	1.698
15.92	187.60	1.711
15.93	187.73	1.722
15.95	187.86	1.737
15.96	187.99	1.750
15.97	188.12	1.764
15.99	188.25	1.780
16.00	188.38	1.793
16.01	188.51	1.806
16.03	188.64	1.826
16.04	188.78	1.841
16.05	188.91	1.859
16.07	189.04	1.867
16.08	189.17	1.875
16.09	189.30	1.881
16.11	189.43	1.891
16.12	189.56	1.904
16.13	189.69	1.917
16.15	189.82	1.929
16.16	189.95	1.947
16.17	190.09	1.961
16.19	190.22	1.983
16.20	190.35	1.999
16.21	190.48	2.002
16.23	190.61	1.992
16.24	190.74	1.979
16.25	190.88	1.957
16.27	191.01	1.923
16.28	191.15	1.885
16.29	191.29	1.818
16.31	191.42	1.737
16.32	191.57	1.619
16.33	191.71	1.468
16.35	191.86	1.304
16.36	192.02	1.154
16.37	192.17	1.023
16.39	192.32	0.912
16.40	192.48	0.809
16.41	192.63	0.734
16.43	192.78	0.680
16.44	192.93	0.646
16.45	193.07	0.615
16.47	193.22	0.590
16.48	193.36	0.572
16.49	193.50	0.555
16.51	193.64	0.540
16.52	193.78	0.529
16.53	193.92	0.520
16.55	194.05	0.512
16.56	194.19	0.503
16.57	194.33	0.499
16.59	194.46	0.492
16.60	194.60	0.491
16.61	194.73	0.485
16.63	194.87	0.483
16.64	195.00	0.480
16.65	195.14	0.477
16.67	195.27	0.476
16.68	195.41	0.475
16.69	195.54	0.474
16.71	195.67	0.473
16.72	195.81	0.472
16.73	195.94	0.471
16.75	196.07	0.471
16.76	196.21	0.471
16.77	196.34	0.470
16.79	196.47	0.470
16.80	196.61	0.470
16.81	196.74	0.469
16.83	196.88	0.469
16.84	197.01	0.469
16.85	197.14	0.469
16.87	197.28	0.469
16.88	197.41	0.469
16.89	197.54	0.468
16.91	197.68	0.468
16.92	197.81	0.468
16.93	197.94	0.468
16.95	198.08	0.468
16.96	198.21	0.468
16.97	198.34	0.468
16.99	198.47	0.468
17.00	198.61	0.468
17.01	198.74	0.468
17.03	198.88	0.468
17.04	199.01	0.468
17.05	199.14	0.468
17.07	199.28	0.468
17.08	199.41	0.468
17.09	199.54	0.468
17.11	199.68	0.468
17.12	199.81	0.468
17.13	199.94	0.468
17.15	200.08	0.468
17.16	200.21	0.468
17.17	200.34	0.468
17.19	200.48	0.469
17.20	200.61	0.469
17.21	200.74	0.469
17.23	200.88	0.469
17.24	201.01	0.469
17.25	201.14	0.469
17.27	201.28	0.469
17.28	201.41	0.470
17.29	201.54	0.470
17.31	201.68	0.470
17.32	201.81	0.470
17.33	201.94	0.470
17.35	202.08	0.471
17.36	202.21	0.471
17.37	202.34	0.471
17.39	202.48	0.471
17.40	202.61	0.471
17.41	202.74	0.472
17.43	202.88	0.472
17.44	203.01	0.472
17.45	203.14	0.472
17.47	203.28	0.473
17.48	203.41	0.473
17.49	203.54	0.473
17.51	203.68	0.474
17.52	203.81	0.474
17.53	203.94	0.474
17.55	204.08	0.475
17.56	204.21	0.475
17.57	204.34	0.475
17.59	204.48	0.475
17.60	204.61	0.476
17.61	204.74	0.476
17.63	204.88	0.476
17.64	205.01	0.476
17.65	205.14	0.476
17.67	205.28	0.477
17.68	205.41	0.477
17.69	205.54	0.477
17.71	205.68	0.477
17.72	205.81	0.477
17.73	205.94	0.478
17.75	206.08	0.478
17.76	206.21	0.478
17.77	206.34	0.478
17.79	206.48	0.478
17.80	206.61	0.479
17.81	206.74	0.479
17.83	206.88	0.479
17.84	207.01	0.479
17.85	207.14	0.480
17.87	207.28	0.480
17.88	207.41	0.480
17.89	207.54	0.480
17.91	207.68	0.480
17.92	207.81	0.480
17.93	207.94	0.479
17.95	208.08	0.479
17.96	208.21	0.479
17.97	208.35	0.479
17.99	208.48	0.479
18.00	208.61	0.479
18.00	208.63	0.479